onset	duration	trial_type	stimulus_pair	trial_number	correct_response	response	response_time	stim_file_left	stim_file_right	stim_type_left	stim_type_right	feedback	feedback_onset	feedback_duration
8.073	2.5	Training	EF	1	E	F	0.972	stimuli/1.jpeg	stimuli/5.jpeg	E	F	wrong	10.623	1
13.29	2.5	Training	AB	2	A	A	1.354	stimuli/4.jpeg	stimuli/3.jpeg	A	B	correct	15.84	1
20.105999999999998	2.5	Training	EF	3	E	E	1.162	stimuli/1.jpeg	stimuli/5.jpeg	E	F	correct	22.656	1
26.723000000000003	2.5	Training	CD	4	C	D	1.371	stimuli/2.jpeg	stimuli/6.jpeg	D	C	wrong	29.273000000000003	1
32.74	2.5	Training	EF	5	E	E	1.338	stimuli/5.jpeg	stimuli/1.jpeg	F	E	correct	35.29	1
37.356	2.5	Training	EF	6	F	E	0.9670000000000001	stimuli/5.jpeg	stimuli/1.jpeg	F	E	wrong	39.907	1
42.973	2.5	Training	AB	7	A	A	1.311	stimuli/4.jpeg	stimuli/3.jpeg	A	B	correct	45.523	1
47.59	2.5	Training	EF	8	F	E	1.17	stimuli/5.jpeg	stimuli/1.jpeg	F	E	wrong	50.14	1
53.607	2.5	Training	CD	9	D	D	1.4269999999999998	stimuli/2.jpeg	stimuli/6.jpeg	D	C	correct	56.157	1
60.223	2.5	Training	AB	10	A	A	1.235	stimuli/4.jpeg	stimuli/3.jpeg	A	B	correct	62.773	1
65.84	2.5	Training	AB	11	A	A	1.389	stimuli/3.jpeg	stimuli/4.jpeg	B	A	correct	68.39	1
72.657	2.5	Training	CD	12	C	D	1.054	stimuli/6.jpeg	stimuli/2.jpeg	C	D	wrong	75.207	1
77.873	2.5	Training	CD	13	C	D	0.8320000000000001	stimuli/6.jpeg	stimuli/2.jpeg	C	D	wrong	80.423	1
83.49	2.5	Training	EF	14	E	E	0.787	stimuli/5.jpeg	stimuli/1.jpeg	F	E	correct	86.04	1
89.507	2.5	Training	CD	15	C	D	1.325	stimuli/2.jpeg	stimuli/6.jpeg	D	C	wrong	92.057	1
96.124	2.5	Training	CD	16	C	D	0.902	stimuli/6.jpeg	stimuli/2.jpeg	C	D	wrong	98.67399999999999	1
101.34	2.5	Training	AB	17	B	A	1.3940000000000001	stimuli/4.jpeg	stimuli/3.jpeg	A	B	wrong	103.89	1
105.95700000000001	2.5	Training	EF	18	F	E	1.179	stimuli/5.jpeg	stimuli/1.jpeg	F	E	wrong	108.507	1
112.774	2.5	Training	AB	19	A	A	1.219	stimuli/3.jpeg	stimuli/4.jpeg	B	A	correct	115.324	1
117.99	2.5	Training	AB	20	A	A	1.08	stimuli/4.jpeg	stimuli/3.jpeg	A	B	correct	120.54	1
124.807	2.5	Training	CD	21	C	C	1.425	stimuli/6.jpeg	stimuli/2.jpeg	C	D	correct	127.35700000000001	1
129.424	2.5	Training	AB	22	A	A	1.242	stimuli/3.jpeg	stimuli/4.jpeg	B	A	correct	131.974	1
135.441	2.5	Training	EF	23	E	E	0.992	stimuli/1.jpeg	stimuli/5.jpeg	E	F	correct	137.991	1
141.05700000000002	2.5	Training	AB	24	B	A	1.224	stimuli/3.jpeg	stimuli/4.jpeg	B	A	wrong	143.607	1
147.674	2.5	Training	AB	25	A	A	1.21	stimuli/3.jpeg	stimuli/4.jpeg	B	A	correct	150.224	1
153.691	2.5	Training	AB	26	A	A	1.0	stimuli/3.jpeg	stimuli/4.jpeg	B	A	correct	156.241	1
160.30700000000002	2.5	Training	EF	27	E	E	1.135	stimuli/5.jpeg	stimuli/1.jpeg	F	E	correct	162.857	1
167.12400000000002	2.5	Training	EF	28	F	E	0.7240000000000001	stimuli/5.jpeg	stimuli/1.jpeg	F	E	wrong	169.674	1
172.74099999999999	2.5	Training	CD	29	C	C	1.085	stimuli/6.jpeg	stimuli/2.jpeg	C	D	correct	175.291	1
177.958	2.5	Training	AB	30	B	A	1.028	stimuli/4.jpeg	stimuli/3.jpeg	A	B	wrong	180.50799999999998	1
182.574	2.5	Training	EF	31	E	E	0.851	stimuli/5.jpeg	stimuli/1.jpeg	F	E	correct	185.12400000000002	1
189.391	2.5	Training	CD	32	C	C	1.175	stimuli/6.jpeg	stimuli/2.jpeg	C	D	correct	191.94099999999997	1
194.00799999999998	2.5	Training	EF	33	F	E	1.196	stimuli/1.jpeg	stimuli/5.jpeg	E	F	wrong	196.558	1
200.62400000000002	2.5	Training	AB	34	A	A	1.9580000000000002	stimuli/3.jpeg	stimuli/4.jpeg	B	A	correct	203.174	1
205.84099999999998	2.5	Training	CD	35	D	C	1.182	stimuli/2.jpeg	stimuli/6.jpeg	D	C	wrong	208.391	1
211.458	2.5	Training	EF	36	F	E	1.181	stimuli/1.jpeg	stimuli/5.jpeg	E	F	wrong	214.00799999999998	1
217.47400000000002	2.5	Training	CD	37	D	C	1.151	stimuli/6.jpeg	stimuli/2.jpeg	C	D	wrong	220.024	1
223.09099999999998	2.5	Training	EF	38	E	E	0.821	stimuli/1.jpeg	stimuli/5.jpeg	E	F	correct	225.641	1
227.708	2.5	Training	EF	39	F	E	0.7140000000000001	stimuli/1.jpeg	stimuli/5.jpeg	E	F	wrong	230.25799999999998	1
233.725	2.5	Training	CD	40	C	C	0.753	stimuli/2.jpeg	stimuli/6.jpeg	D	C	correct	236.275	1
238.94099999999997	2.5	Training	AB	41	A	A	1.204	stimuli/4.jpeg	stimuli/3.jpeg	A	B	correct	241.49099999999999	1
245.558	2.5	Training	EF	42	F	E	1.1340000000000001	stimuli/1.jpeg	stimuli/5.jpeg	E	F	wrong	248.108	1
252.375	2.5	Training	AB	43	A	A	1.284	stimuli/4.jpeg	stimuli/3.jpeg	A	B	correct	254.925	1
256.991	2.5	Training	AB	44	A	A	0.733	stimuli/4.jpeg	stimuli/3.jpeg	A	B	correct	259.541	1
262.20799999999997	2.5	Training	CD	45	C	C	0.9590000000000001	stimuli/2.jpeg	stimuli/6.jpeg	D	C	correct	264.758	1
269.025	2.5	Training	CD	46	D	C	0.9490000000000001	stimuli/2.jpeg	stimuli/6.jpeg	D	C	wrong	271.575	1
275.642	2.5	Training	CD	47	C	C	0.772	stimuli/2.jpeg	stimuli/6.jpeg	D	C	correct	278.192	1
281.258	2.5	Training	EF	48	E	E	0.777	stimuli/5.jpeg	stimuli/1.jpeg	F	E	correct	283.808	1
287.275	2.5	Training	CD	49	D	C	0.865	stimuli/2.jpeg	stimuli/6.jpeg	D	C	wrong	289.825	1
293.892	2.5	Training	AB	50	A	A	1.2690000000000001	stimuli/3.jpeg	stimuli/4.jpeg	B	A	correct	296.442	1
299.108	2.5	Training	CD	51	C	C	1.808	stimuli/6.jpeg	stimuli/2.jpeg	C	D	correct	301.658	1
303.725	2.5	Training	CD	52	C	C	1.6909999999999998	stimuli/6.jpeg	stimuli/2.jpeg	C	D	correct	306.275	1
310.54200000000003	2.5	Training	EF	53	E	E	1.043	stimuli/1.jpeg	stimuli/5.jpeg	E	F	correct	313.092	1
316.558	2.5	Training	EF	54	E	E	0.875	stimuli/5.jpeg	stimuli/1.jpeg	F	E	correct	319.10900000000004	1
322.175	2.5	Training	AB	55	B	A	1.318	stimuli/3.jpeg	stimuli/4.jpeg	B	A	wrong	324.725	1
328.19199999999995	2.5	Training	CD	56	D	C	1.675	stimuli/6.jpeg	stimuli/2.jpeg	C	D	wrong	330.74199999999996	1
335.009	2.5	Training	CD	57	C	C	1.0170000000000001	stimuli/2.jpeg	stimuli/6.jpeg	D	C	correct	337.559	1
341.625	2.5	Training	EF	58	E	E	1.942	stimuli/1.jpeg	stimuli/5.jpeg	E	F	correct	344.175	1
