onset	duration	trial_type	stim_file	prompt	response	response_time
3.009	1.5	Self	stimuli/task-sorpf/self.png	thinks_analytically	1	0.17600000000000002
7.742000000000001	1.5	Self	stimuli/task-sorpf/self.png	concerned	1	0.69
12.689	1.5	Self	stimuli/task-sorpf/self.png	friendless	2	0.5489999999999999
17.542	1.5	Self	stimuli/task-sorpf/self.png	vain	2	0.966
22.462	1.5	Self	stimuli/task-sorpf/self.png	honest	1	0.495
27.062	1.5	Self	stimuli/task-sorpf/self.png	socially_awkward	1	0.461
31.689	1.5	Self	stimuli/task-sorpf/self.png	driven	1	0.67
36.449	1.5	Self	stimuli/task-sorpf/self.png	a_good_leader	2	0.619
43.382	0.8	Flanker-Congruent	stimuli/task-sorpf/arrows/Right100.jpg	n/a	2	0.61
46.982	0.8	Flanker-Congruent	stimuli/task-sorpf/arrows/Right100.jpg	n/a	n/a	n/a
50.395	0.8	Flanker-Incongruent	stimuli/task-sorpf/arrows/RightInCon.jpg	n/a	n/a	n/a
53.302	0.8	Flanker-Congruent	stimuli/task-sorpf/arrows/Right100.jpg	n/a	2	0.411
56.702	0.8	Flanker-Incongruent	stimuli/task-sorpf/arrows/RightInCon.jpg	n/a	1	0.46
73.222	1.5	Other	stimuli/task-sorpf/characters/LucasSinclair.png	LucasSinclair_good_hair	1	0.502
78.209	1.5	Other	stimuli/task-sorpf/characters/DustinHenderson.png	DustinHenderson_too_skinny	2	0.342
82.902	1.5	Other	stimuli/task-sorpf/characters/NancyWheeler.png	NancyWheeler_a_good_leader	2	0.542
87.569	1.5	Other	stimuli/task-sorpf/characters/Eleven.png	Eleven_very_stylish	2	0.409
92.156	1.5	Other	stimuli/task-sorpf/characters/JimHopper.png	JimHopper_competitive	1	0.389
96.876	1.5	Other	stimuli/task-sorpf/characters/SteveHarrington.png	SteveHarrington_critical	1	0.527
101.542	1.5	Other	stimuli/task-sorpf/characters/MikeWheeler.png	MikeWheeler_concerned	1	0.547
106.303	1.5	Other	stimuli/task-sorpf/characters/JonathanByers.png	JonathanByers_smart	1	0.525
113.076	0.8	Flanker-Congruent	stimuli/task-sorpf/arrows/Right100.jpg	n/a	2	0.525
117.276	0.8	Flanker-Congruent	stimuli/task-sorpf/arrows/Right100.jpg	n/a	2	0.5710000000000001
120.076	0.8	Flanker-Congruent	stimuli/task-sorpf/arrows/Right100.jpg	n/a	2	0.4920000000000001
123.676	0.8	Flanker-Incongruent	stimuli/task-sorpf/arrows/RightInCon.jpg	n/a	2	0.598
127.783	0.8	Flanker-Congruent	stimuli/task-sorpf/arrows/Right100.jpg	n/a	2	0.518
145.863	1.5	Malleable	stimuli/task-sorpf/strangers/erik-lucatero-d2MSDujJl2g-unsplash.png	erik-lucatero-d2MSDujJl2g-unsplash_pulls_pranks	1	0.573
151.156	1.5	Malleable	stimuli/task-sorpf/strangers/oliver-ragfelt-s5zc3NyWVRI-unsplash.png	oliver-ragfelt-s5zc3NyWVRI-unsplash_fun-loving	1	0.8340000000000001
156.129	1.5	Malleable	stimuli/task-sorpf/strangers/ratiu-bia-7fzINre0NQE-unsplash.png	ratiu-bia-7fzINre0NQE-unsplash_concerned	1	0.314
161.356	1.5	Malleable	stimuli/task-sorpf/strangers/austin-human-Ec7cHN7ofi0-unsplash.png	austin-human-Ec7cHN7ofi0-unsplash_thinks_analytically	2	0.67
166.55599999999995	1.5	Malleable	stimuli/task-sorpf/strangers/azamat-zhanisov-kWKcLFCHD6w-unsplash.png	azamat-zhanisov-kWKcLFCHD6w-unsplash_competitive	1	0.535
172.10299999999995	1.5	Malleable	stimuli/task-sorpf/strangers/emile-guillemot-LSP9Tpavbms-unsplash.png	emile-guillemot-LSP9Tpavbms-unsplash_honest	1	0.416
177.15599999999995	1.5	Malleable	stimuli/task-sorpf/strangers/kelly-sikkema-JN0SUcTOig0-unsplash.png	kelly-sikkema-JN0SUcTOig0-unsplash_sensitive	2	0.469
183.036	1.5	Malleable	stimuli/task-sorpf/strangers/stefan-stefancik-QXevDflbl8A-unsplash.png	stefan-stefancik-QXevDflbl8A-unsplash_conscientious	1	0.48
189.063	0.8	Flanker-Incongruent	stimuli/task-sorpf/arrows/RightInCon.jpg	n/a	n/a	n/a
192.783	0.8	Flanker-Incongruent	stimuli/task-sorpf/arrows/LeftInCon.jpg	n/a	1	0.618
195.49	0.8	Flanker-Congruent	stimuli/task-sorpf/arrows/Right100.jpg	n/a	2	0.453
198.503	0.8	Flanker-Congruent	stimuli/task-sorpf/arrows/Left100.jpg	n/a	1	0.597
202.01	0.8	Flanker-Incongruent	stimuli/task-sorpf/arrows/LeftInCon.jpg	n/a	1	0.6709999999999999
216.396	1.5	Self	stimuli/task-sorpf/self.png	dramatic	1	0.309
221.21	1.5	Self	stimuli/task-sorpf/self.png	has_weird_hobbies	1	0.419
225.836	1.5	Self	stimuli/task-sorpf/self.png	too_skinny	2	0.294
230.37	1.5	Self	stimuli/task-sorpf/self.png	critical	1	0.5579999999999999
235.037	1.5	Self	stimuli/task-sorpf/self.png	sneaky	2	0.35100000000000003
239.85	1.5	Self	stimuli/task-sorpf/self.png	a_bad_friend	2	0.454
244.85	1.5	Self	stimuli/task-sorpf/self.png	mean	2	0.396
249.397	1.5	Self	stimuli/task-sorpf/self.png	friendly	1	0.295
256.157	0.8	Flanker-Incongruent	stimuli/task-sorpf/arrows/RightInCon.jpg	n/a	n/a	n/a
258.957	0.8	Flanker-Incongruent	stimuli/task-sorpf/arrows/RightInCon.jpg	n/a	2	0.598
263.263	0.8	Flanker-Congruent	stimuli/task-sorpf/arrows/Left100.jpg	n/a	1	0.452
266.263	0.8	Flanker-Congruent	stimuli/task-sorpf/arrows/Right100.jpg	n/a	2	0.47
270.17	0.8	Flanker-Incongruent	stimuli/task-sorpf/arrows/RightInCon.jpg	n/a	2	0.585
286.49	1.5	Other	stimuli/task-sorpf/characters/JoyceByers.png	JoyceByers_sensitive	1	0.302
291.4770000000001	1.5	Other	stimuli/task-sorpf/characters/SteveHarrington.png	SteveHarrington_unattractive	1	0.9
296.224	1.5	Other	stimuli/task-sorpf/characters/JoyceByers.png	JoyceByers_honest	1	0.39
300.824	1.5	Other	stimuli/task-sorpf/characters/JonathanByers.png	JonathanByers_goofs_off	2	0.359
305.4240000000001	1.5	Other	stimuli/task-sorpf/characters/LucasSinclair.png	LucasSinclair_a_bad_friend	2	0.615
310.13	1.5	Other	stimuli/task-sorpf/characters/MikeWheeler.png	MikeWheeler_uptight	1	0.58
314.824	1.5	Other	stimuli/task-sorpf/characters/Eleven.png	Eleven_dramatic	2	0.343
319.677	1.5	Other	stimuli/task-sorpf/characters/NancyWheeler.png	NancyWheeler_closed_off	1	0.322
326.69	0.8	Flanker-Congruent	stimuli/task-sorpf/arrows/Right100.jpg	n/a	2	0.562
331.09	0.8	Flanker-Incongruent	stimuli/task-sorpf/arrows/LeftInCon.jpg	n/a	1	0.525
334.691	0.8	Flanker-Congruent	stimuli/task-sorpf/arrows/Right100.jpg	n/a	2	0.453
338.397	0.8	Flanker-Incongruent	stimuli/task-sorpf/arrows/LeftInCon.jpg	n/a	1	0.52
342.797	0.8	Flanker-Incongruent	stimuli/task-sorpf/arrows/RightInCon.jpg	n/a	2	0.6559999999999999
359.771	1.5	Malleable	stimuli/task-sorpf/strangers/luis-villasmil-hh3ViD0r0Rc-unsplash.png	luis-villasmil-hh3ViD0r0Rc-unsplash_studious	1	0.333
365.197	1.5	Malleable	stimuli/task-sorpf/strangers/erik-lucatero-d2MSDujJl2g-unsplash.png	erik-lucatero-d2MSDujJl2g-unsplash_proper	1	0.396
370.291	1.5	Malleable	stimuli/task-sorpf/strangers/oliver-ragfelt-s5zc3NyWVRI-unsplash.png	oliver-ragfelt-s5zc3NyWVRI-unsplash_uptight	1	0.3670000000000001
375.411	1.5	Malleable	stimuli/task-sorpf/strangers/ratiu-bia-7fzINre0NQE-unsplash.png	ratiu-bia-7fzINre0NQE-unsplash_friendly	1	0.535
380.597	1.5	Malleable	stimuli/task-sorpf/strangers/austin-human-Ec7cHN7ofi0-unsplash.png	austin-human-Ec7cHN7ofi0-unsplash_standoffish	1	0.35100000000000003
385.984	1.5	Malleable	stimuli/task-sorpf/strangers/azamat-zhanisov-kWKcLFCHD6w-unsplash.png	azamat-zhanisov-kWKcLFCHD6w-unsplash_smart	2	1.48
391.197	1.5	Malleable	stimuli/task-sorpf/strangers/emile-guillemot-LSP9Tpavbms-unsplash.png	emile-guillemot-LSP9Tpavbms-unsplash_popular	1	0.382
395.971	1.5	Malleable	stimuli/task-sorpf/strangers/kelly-sikkema-JN0SUcTOig0-unsplash.png	kelly-sikkema-JN0SUcTOig0-unsplash_friendless	1	0.29100000000000004
401.9980000000001	0.8	Flanker-Congruent	stimuli/task-sorpf/arrows/Right100.jpg	n/a	2	0.522
404.597	0.8	Flanker-Incongruent	stimuli/task-sorpf/arrows/LeftInCon.jpg	n/a	1	0.586
407.198	0.8	Flanker-Incongruent	stimuli/task-sorpf/arrows/RightInCon.jpg	n/a	2	0.565
409.704	0.8	Flanker-Incongruent	stimuli/task-sorpf/arrows/RightInCon.jpg	n/a	2	0.645
413.811	0.8	Flanker-Congruent	stimuli/task-sorpf/arrows/Left100.jpg	n/a	1	0.609
