onset	duration	trial_type	stimulus_pair	trial_number	correct_response	response	response_time	stim_file_left	stim_file_right	stim_type_left	stim_type_right	feedback	feedback_onset	feedback_duration
8.133	2.5	Training	EF	1	F	E	1.541	stimuli/6.jpeg	stimuli/4.jpeg	F	E	wrong	10.633	1
13.633	2.5	Training	AB	2	A	B	1.3769999999999998	stimuli/3.jpeg	stimuli/1.jpeg	B	A	wrong	16.133	1
19.533	2.5	Training	EF	3	E	F	1.093	stimuli/4.jpeg	stimuli/6.jpeg	E	F	wrong	22.033	1
24.633000000000003	2.5	Training	EF	4	E	F	1.061	stimuli/6.jpeg	stimuli/4.jpeg	F	E	wrong	27.133000000000003	1
29.133000000000003	2.5	Training	CD	5	C	C	1.456	stimuli/2.jpeg	stimuli/5.jpeg	D	C	correct	31.633000000000003	1
35.833	2.5	Training	AB	6	A	A	1.224	stimuli/1.jpeg	stimuli/3.jpeg	A	B	correct	38.333	1
42.333	2.5	Training	CD	7	C	C	1.1159999999999999	stimuli/5.jpeg	stimuli/2.jpeg	C	D	correct	44.833	1
48.233000000000004	2.5	Training	CD	8	D	C	1.1909999999999998	stimuli/2.jpeg	stimuli/5.jpeg	D	C	wrong	50.733000000000004	1
53.333	2.5	Training	EF	9	E	E	1.122	stimuli/4.jpeg	stimuli/6.jpeg	E	F	correct	55.833	1
58.833	2.5	Training	EF	10	F	E	1.215	stimuli/6.jpeg	stimuli/4.jpeg	F	E	wrong	61.333	1
63.333	2.5	Training	EF	11	E	E	0.851	stimuli/6.jpeg	stimuli/4.jpeg	F	E	correct	65.833	1
69.833	2.5	Training	CD	12	C	C	0.813	stimuli/5.jpeg	stimuli/2.jpeg	C	D	correct	72.333	1
76.533	2.5	Training	EF	13	F	E	1.541	stimuli/4.jpeg	stimuli/6.jpeg	E	F	wrong	79.033	1
83.03399999999999	2.5	Training	EF	14	E	E	0.696	stimuli/4.jpeg	stimuli/6.jpeg	E	F	correct	85.53399999999999	1
88.134	2.5	Training	EF	15	F	E	1.087	stimuli/4.jpeg	stimuli/6.jpeg	E	F	wrong	90.634	1
93.634	2.5	Training	CD	16	D	C	0.6920000000000001	stimuli/2.jpeg	stimuli/5.jpeg	D	C	wrong	96.134	1
99.53399999999999	2.5	Training	CD	17	C	C	0.772	stimuli/2.jpeg	stimuli/5.jpeg	D	C	correct	102.03399999999999	1
104.03399999999999	2.5	Training	CD	18	C	C	0.53	stimuli/2.jpeg	stimuli/5.jpeg	D	C	correct	106.53399999999999	1
110.734	2.5	Training	AB	19	A	B	1.395	stimuli/3.jpeg	stimuli/1.jpeg	B	A	wrong	113.234	1
116.634	2.5	Training	AB	20	A	A	0.6609999999999999	stimuli/1.jpeg	stimuli/3.jpeg	A	B	correct	119.134	1
123.334	2.5	Training	CD	21	C	C	0.639	stimuli/2.jpeg	stimuli/5.jpeg	D	C	correct	125.834	1
127.834	2.5	Training	CD	22	D	C	0.5529999999999999	stimuli/2.jpeg	stimuli/5.jpeg	D	C	wrong	130.334	1
132.934	2.5	Training	AB	23	A	A	1.12	stimuli/1.jpeg	stimuli/3.jpeg	A	B	correct	135.434	1
138.434	2.5	Training	AB	24	B	A	1.013	stimuli/3.jpeg	stimuli/1.jpeg	B	A	wrong	140.934	1
144.934	2.5	Training	AB	25	B	A	0.613	stimuli/1.jpeg	stimuli/3.jpeg	A	B	wrong	147.434	1
150.434	2.5	Training	CD	26	C	C	0.647	stimuli/2.jpeg	stimuli/5.jpeg	D	C	correct	152.934	1
157.134	2.5	Training	CD	27	C	C	0.79	stimuli/5.jpeg	stimuli/2.jpeg	C	D	correct	159.634	1
163.034	2.5	Training	CD	28	D	C	0.542	stimuli/5.jpeg	stimuli/2.jpeg	C	D	wrong	165.53400000000002	1
167.53400000000002	2.5	Training	EF	29	E	E	1.268	stimuli/6.jpeg	stimuli/4.jpeg	F	E	correct	170.03400000000002	1
172.63400000000001	2.5	Training	EF	30	F	E	0.763	stimuli/6.jpeg	stimuli/4.jpeg	F	E	wrong	175.13400000000001	1
179.13400000000001	2.5	Training	AB	31	A	A	0.831	stimuli/3.jpeg	stimuli/1.jpeg	B	A	correct	181.63400000000001	1
185.03400000000002	2.5	Training	CD	32	C	C	0.561	stimuli/2.jpeg	stimuli/5.jpeg	D	C	correct	187.53400000000002	1
190.135	2.5	Training	AB	33	A	A	1.042	stimuli/1.jpeg	stimuli/3.jpeg	A	B	correct	192.635	1
196.635	2.5	Training	CD	34	C	C	0.733	stimuli/5.jpeg	stimuli/2.jpeg	C	D	correct	199.135	1
203.335	2.5	Training	EF	35	E	E	0.963	stimuli/4.jpeg	stimuli/6.jpeg	E	F	correct	205.835	1
208.835	2.5	Training	CD	36	D	C	0.586	stimuli/5.jpeg	stimuli/2.jpeg	C	D	wrong	211.335	1
213.335	2.5	Training	EF	37	E	E	0.589	stimuli/4.jpeg	stimuli/6.jpeg	E	F	correct	215.835	1
220.035	2.5	Training	CD	38	C	C	0.466	stimuli/5.jpeg	stimuli/2.jpeg	C	D	correct	222.535	1
224.535	2.5	Training	CD	39	C	C	0.547	stimuli/5.jpeg	stimuli/2.jpeg	C	D	correct	227.035	1
231.035	2.5	Training	AB	40	A	A	0.6679999999999999	stimuli/3.jpeg	stimuli/1.jpeg	B	A	correct	233.535	1
236.935	2.5	Training	EF	41	E	E	0.696	stimuli/6.jpeg	stimuli/4.jpeg	F	E	correct	239.435	1
242.035	2.5	Training	AB	42	A	A	0.773	stimuli/3.jpeg	stimuli/1.jpeg	B	A	correct	244.535	1
247.535	2.5	Training	EF	43	F	E	0.937	stimuli/4.jpeg	stimuli/6.jpeg	E	F	wrong	250.035	1
254.035	2.5	Training	AB	44	B	A	1.386	stimuli/1.jpeg	stimuli/3.jpeg	A	B	wrong	256.535	1
260.735	2.5	Training	AB	45	A	A	0.606	stimuli/1.jpeg	stimuli/3.jpeg	A	B	correct	263.235	1
265.835	2.5	Training	AB	46	A	A	0.7559999999999999	stimuli/3.jpeg	stimuli/1.jpeg	B	A	correct	268.335	1
271.335	2.5	Training	CD	47	D	C	0.5539999999999999	stimuli/2.jpeg	stimuli/5.jpeg	D	C	wrong	273.835	1
275.835	2.5	Training	CD	48	C	C	0.6509999999999999	stimuli/5.jpeg	stimuli/2.jpeg	C	D	correct	278.335	1
281.735	2.5	Training	EF	49	F	E	0.634	stimuli/6.jpeg	stimuli/4.jpeg	F	E	wrong	284.235	1
287.235	2.5	Training	EF	50	E	E	0.5589999999999999	stimuli/4.jpeg	stimuli/6.jpeg	E	F	correct	289.735	1
293.935	2.5	Training	AB	51	A	A	1.046	stimuli/1.jpeg	stimuli/3.jpeg	A	B	correct	296.435	1
298.435	2.5	Training	AB	52	B	A	1.2670000000000001	stimuli/3.jpeg	stimuli/1.jpeg	B	A	wrong	300.936	1
304.336	2.5	Training	CD	53	C	C	0.603	stimuli/5.jpeg	stimuli/2.jpeg	C	D	correct	306.836	1
309.436	2.5	Training	EF	54	E	E	1.345	stimuli/6.jpeg	stimuli/4.jpeg	F	E	correct	311.936	1
315.936	2.5	Training	AB	55	A	A	1.09	stimuli/1.jpeg	stimuli/3.jpeg	A	B	correct	318.436	1
322.63599999999997	2.5	Training	EF	56	E	E	0.5670000000000001	stimuli/6.jpeg	stimuli/4.jpeg	F	E	correct	325.13599999999997	1
327.736	2.5	Training	AB	57	A	A	0.7	stimuli/1.jpeg	stimuli/3.jpeg	A	B	correct	330.236	1
334.236	2.5	Training	EF	58	F	E	0.816	stimuli/4.jpeg	stimuli/6.jpeg	E	F	wrong	336.736	1
339.736	2.5	Training	AB	59	A	A	0.545	stimuli/3.jpeg	stimuli/1.jpeg	B	A	correct	342.236	1
344.236	2.5	Training	AB	60	A	A	0.86	stimuli/3.jpeg	stimuli/1.jpeg	B	A	correct	346.736	1
