onset	duration	trial_type	stimulus_pair	trial_number	correct_response	response	response_time	stim_file_left	stim_file_right	stim_type_left	stim_type_right	feedback	feedback_onset	feedback_duration
8.088	2.5	Training	AB	1	B	B	1.504	stimuli/4.jpeg	stimuli/5.jpeg	A	B	correct	10.588	1
13.988	2.5	Training	EF	2	F	E	1.284	stimuli/2.jpeg	stimuli/6.jpeg	E	F	wrong	16.488	1
19.088	2.5	Training	CD	3	D	D	1.122	stimuli/3.jpeg	stimuli/1.jpeg	D	C	correct	21.588	1
23.588	2.5	Training	AB	4	A	B	0.638	stimuli/4.jpeg	stimuli/5.jpeg	A	B	wrong	26.088	1
30.088	2.5	Training	AB	5	B	B	1.107	stimuli/4.jpeg	stimuli/5.jpeg	A	B	correct	32.588	1
35.588	2.5	Training	AB	6	B	B	1.056	stimuli/5.jpeg	stimuli/4.jpeg	B	A	correct	38.088	1
42.288999999999994	2.5	Training	EF	7	F	F	1.1640000000000001	stimuli/6.jpeg	stimuli/2.jpeg	F	E	correct	44.788999999999994	1
48.18899999999999	2.5	Training	EF	8	E	F	0.612	stimuli/6.jpeg	stimuli/2.jpeg	F	E	wrong	50.68899999999999	1
53.288999999999994	2.5	Training	EF	9	E	F	0.7170000000000001	stimuli/2.jpeg	stimuli/6.jpeg	E	F	wrong	55.788999999999994	1
59.989	2.5	Training	EF	10	E	E	0.807	stimuli/2.jpeg	stimuli/6.jpeg	E	F	correct	62.489	1
65.48899999999999	2.5	Training	CD	11	D	C	1.101	stimuli/1.jpeg	stimuli/3.jpeg	C	D	wrong	67.98899999999999	1
71.98899999999999	2.5	Training	EF	12	E	E	0.995	stimuli/2.jpeg	stimuli/6.jpeg	E	F	correct	74.48899999999999	1
76.48899999999999	2.5	Training	CD	13	C	D	1.1159999999999999	stimuli/3.jpeg	stimuli/1.jpeg	D	C	wrong	78.98899999999999	1
83.189	2.5	Training	AB	14	A	B	0.652	stimuli/4.jpeg	stimuli/5.jpeg	A	B	wrong	85.689	1
89.689	2.5	Training	EF	15	F	E	0.9229999999999999	stimuli/2.jpeg	stimuli/6.jpeg	E	F	wrong	92.189	1
95.589	2.5	Training	CD	16	C	D	0.802	stimuli/3.jpeg	stimuli/1.jpeg	D	C	wrong	98.089	1
101.089	2.5	Training	CD	17	C	C	0.662	stimuli/3.jpeg	stimuli/1.jpeg	D	C	correct	103.589	1
106.189	2.5	Training	CD	18	C	C	0.6779999999999999	stimuli/1.jpeg	stimuli/3.jpeg	C	D	correct	108.689	1
110.689	2.5	Training	CD	19	C	C	0.5	stimuli/3.jpeg	stimuli/1.jpeg	D	C	correct	113.189	1
117.189	2.5	Training	EF	20	E	E	1.13	stimuli/2.jpeg	stimuli/6.jpeg	E	F	correct	119.689	1
122.289	2.5	Training	EF	21	F	E	0.897	stimuli/6.jpeg	stimuli/2.jpeg	F	E	wrong	124.789	1
127.789	2.5	Training	EF	22	E	E	0.85	stimuli/6.jpeg	stimuli/2.jpeg	F	E	correct	130.289	1
133.689	2.5	Training	EF	23	F	E	0.8340000000000001	stimuli/2.jpeg	stimuli/6.jpeg	E	F	wrong	136.189	1
140.39	2.5	Training	EF	24	E	E	0.636	stimuli/2.jpeg	stimuli/6.jpeg	E	F	correct	142.89	1
144.89	2.5	Training	EF	25	E	E	0.705	stimuli/2.jpeg	stimuli/6.jpeg	E	F	correct	147.39	1
150.39	2.5	Training	CD	26	C	C	0.7979999999999999	stimuli/1.jpeg	stimuli/3.jpeg	C	D	correct	152.89	1
156.89	2.5	Training	EF	27	E	E	0.899	stimuli/6.jpeg	stimuli/2.jpeg	F	E	correct	159.39	1
161.39	2.5	Training	CD	28	C	C	0.68	stimuli/1.jpeg	stimuli/3.jpeg	C	D	correct	163.89	1
166.49	2.5	Training	CD	29	C	C	0.653	stimuli/3.jpeg	stimuli/1.jpeg	D	C	correct	168.99	1
172.39	2.5	Training	EF	30	E	E	0.807	stimuli/6.jpeg	stimuli/2.jpeg	F	E	correct	174.89	1
179.09	2.5	Training	CD	31	C	C	0.973	stimuli/1.jpeg	stimuli/3.jpeg	C	D	correct	181.59	1
184.19	2.5	Training	AB	32	A	B	0.49700000000000005	stimuli/4.jpeg	stimuli/5.jpeg	A	B	wrong	186.69	1
188.69	2.5	Training	AB	33	A	B	0.64	stimuli/5.jpeg	stimuli/4.jpeg	B	A	wrong	191.19	1
195.39	2.5	Training	AB	34	A	B	0.56	stimuli/5.jpeg	stimuli/4.jpeg	B	A	wrong	197.89	1
200.89	2.5	Training	CD	35	C	C	0.81	stimuli/1.jpeg	stimuli/3.jpeg	C	D	correct	203.39	1
207.39	2.5	Training	AB	36	A	A	0.91	stimuli/4.jpeg	stimuli/5.jpeg	A	B	correct	209.89	1
213.29	2.5	Training	AB	37	A	A	1.081	stimuli/5.jpeg	stimuli/4.jpeg	B	A	correct	215.79	1
217.79	2.5	Training	CD	38	C	C	0.68	stimuli/1.jpeg	stimuli/3.jpeg	C	D	correct	220.29	1
224.49	2.5	Training	AB	39	A	A	0.8170000000000001	stimuli/4.jpeg	stimuli/5.jpeg	A	B	correct	226.99	1
230.39	2.5	Training	EF	40	F	E	1.1179999999999999	stimuli/2.jpeg	stimuli/6.jpeg	E	F	wrong	232.89	1
235.49	2.5	Training	AB	41	A	A	0.861	stimuli/4.jpeg	stimuli/5.jpeg	A	B	correct	237.99	1
241.99099999999999	2.5	Training	EF	42	F	E	0.975	stimuli/6.jpeg	stimuli/2.jpeg	F	E	wrong	244.49099999999999	1
247.49099999999999	2.5	Training	CD	43	D	C	0.386	stimuli/3.jpeg	stimuli/1.jpeg	D	C	wrong	249.99099999999999	1
252.59099999999998	2.5	Training	EF	44	E	E	0.8640000000000001	stimuli/6.jpeg	stimuli/2.jpeg	F	E	correct	255.09099999999998	1
258.091	2.5	Training	EF	45	F	E	0.8490000000000001	stimuli/6.jpeg	stimuli/2.jpeg	F	E	wrong	260.591	1
264.591	2.5	Training	EF	46	E	E	0.855	stimuli/6.jpeg	stimuli/2.jpeg	F	E	correct	267.091	1
269.091	2.5	Training	AB	47	A	A	0.948	stimuli/5.jpeg	stimuli/4.jpeg	B	A	correct	271.591	1
275.791	2.5	Training	AB	48	A	A	1.093	stimuli/4.jpeg	stimuli/5.jpeg	A	B	correct	278.291	1
281.691	2.5	Training	CD	49	C	C	0.841	stimuli/1.jpeg	stimuli/3.jpeg	C	D	correct	284.191	1
286.791	2.5	Training	CD	50	C	C	0.856	stimuli/1.jpeg	stimuli/3.jpeg	C	D	correct	289.291	1
291.291	2.5	Training	CD	51	D	C	0.589	stimuli/3.jpeg	stimuli/1.jpeg	D	C	wrong	293.791	1
296.791	2.5	Training	AB	52	A	B	1.042	stimuli/4.jpeg	stimuli/5.jpeg	A	B	wrong	299.291	1
303.291	2.5	Training	AB	53	A	A	1.147	stimuli/5.jpeg	stimuli/4.jpeg	B	A	correct	305.791	1
309.991	2.5	Training	AB	54	A	A	0.9059999999999999	stimuli/5.jpeg	stimuli/4.jpeg	B	A	correct	312.491	1
315.89099999999996	2.5	Training	AB	55	A	A	0.764	stimuli/5.jpeg	stimuli/4.jpeg	B	A	correct	318.39099999999996	1
321.39099999999996	2.5	Training	CD	56	D	C	0.89	stimuli/1.jpeg	stimuli/3.jpeg	C	D	wrong	323.89099999999996	1
325.89099999999996	2.5	Training	AB	57	A	A	0.657	stimuli/5.jpeg	stimuli/4.jpeg	B	A	correct	328.39099999999996	1
331.791	2.5	Training	CD	58	C	C	0.77	stimuli/3.jpeg	stimuli/1.jpeg	D	C	correct	334.291	1
336.892	2.5	Training	CD	59	D	C	0.608	stimuli/3.jpeg	stimuli/1.jpeg	D	C	wrong	339.392	1
343.592	2.5	Training	AB	60	B	A	0.9890000000000001	stimuli/5.jpeg	stimuli/4.jpeg	B	A	wrong	346.092	1
